{
  "resourceType": "Bundle",
  "id": "4f636ea4-13a1-4cd0-a04e-430ad80dfc01",
  "identifier": {
    "system": "https://tools.ietf.org/html/rfc4122",
    "value": "1d7a629e-8fbc-4d60-9cd9-9aa049031329"
  },
  "type": "message",
  "entry": [
    {
      "fullUrl": "urn:uuid:e8ea1b52-2967-4337-81ed-9ad30f2b4528",
      "resource": {
        "resourceType": "MessageHeader",
        "eventCoding": {
          "system": "https://fhir.nhs.uk/CodeSystem/message-event",
          "code": "prescription-order",
          "display": "Prescription Order"
        },
        "destination": [
          {
            "endpoint": "https://sandbox.api.service.nhs.uk/fhir-prescribing/$post-message",
            "receiver": {
              "identifier": {
                "system": "https://fhir.nhs.uk/Id/ods-organization-code",
                "value": "UP209"
              },
              "display": "UP209"
            }
          }
        ],
        "sender": {
          "identifier": {
            "system": "https://fhir.nhs.uk/Id/ods-organization-code",
            "value": "O59100"
          },
          "display": "HALLGARTH SURGERY"
        },
        "source": {
          "endpoint": "https://directory.spineservices.nhs.uk/STU3/Organization/O59100"
        },
        "focus": [
          {
            "reference": "urn:uuid:58402561-713b-42a6-9302-9642945b418b"
          }
        ]
      }
    },
    {
      "fullUrl": "urn:uuid:58402561-713b-42a6-9302-9642945b418b",
      "resource": {
        "resourceType": "MedicationRequest",
        "extension": [
          {
            "url": "https://fhir.nhs.uk/StructureDefinition/Extension-DM-PrescriptionType",
            "valueCoding": {
              "system": "https://fhir.nhs.uk/CodeSystem/prescription-type",
              "code": "0101",
              "display": "Primary Care Prescriber - Medical Prescriber"
            }
          }
        ],
        "identifier": [
          {
            "system": "https://fhir.nhs.uk/Id/prescription-order-item-number",
            "value": "58402561-713b-42a6-9302-9642945b418b"
          }
        ],
        "status": "active",
        "intent": "order",
        "category": [
          {
            "coding": [
              {
                "system": "http://terminology.hl7.org/CodeSystem/medicationrequest-category",
                "code": "community",
                "display": "Community"
              }
            ]
          }
        ],
        "medicationCodeableConcept": {
          "coding": [
            {
              "system": "http://snomed.info/sct",
              "code": "39732311000001104",
              "display": "Amoxicillin 250mg capsules"
            }
          ]
        },
        "subject": {
          "reference": "urn:uuid:64538640-a2b4-4ab2-95e3-847fecb37650"
        },
        "requester": {
          "reference": "urn:uuid:8ec85db5-8649-4505-bb54-3dee62baeac6"
        },
        "groupIdentifier": {
          "system": "https://fhir.nhs.uk/Id/prescription-order-number",
          "value": "E27BC2-O59100-46733D",
          "extension": [
            {
              "url": "https://fhir.nhs.uk/StructureDefinition/Extension-DM-PrescriptionId",
              "valueIdentifier": {
                "system": "https://fhir.nhs.uk/Id/prescription",
                "value": "7d53edef-5b18-4fcf-9c6a-6a81d3e02073"
              }
            }
          ]
        },
        "courseOfTherapyType": {
          "coding": [
            {
              "system": "http://terminology.hl7.org/CodeSystem/medicationrequest-course-of-therapy",
              "code": "acute",
              "display": "Short course (acute) therapy"
            }
          ]
        },
        "dosageInstruction": [
          {
            "text": "2 times a day for 10 days",
            "timing": {
              "repeat": {
                "frequency": 2,
                "period": 1,
                "periodUnit": "d"
              }
            },
            "route": {
              "coding": [
                {
                  "system": "http://snomed.info/sct",
                  "code": "26643006",
                  "display": "Oral"
                }
              ]
            }
          }
        ],
        "dispenseRequest": {
          "extension": [
            {
              "url": "https://fhir.nhs.uk/StructureDefinition/Extension-DM-PerformerSiteType",
              "valueCoding": {
                "system": "https://fhir.nhs.uk/CodeSystem/dispensing-site-preference",
                "code": "P1"
              }
            }
          ],
          "validityPeriod": {
            "start": "2025-08-06",
            "end": "2025-09-05"
          },
          "quantity": {
            "value": 20,
            "unit": "tablet",
            "system": "http://snomed.info/sct",
            "code": "428673006"
          },
          "expectedSupplyDuration": {
            "value": 2,
            "unit": "day",
            "system": "http://unitsofmeasure.org",
            "code": "d"
          },
          "performer": {
            "identifier": {
              "system": "https://fhir.nhs.uk/Id/ods-organization-code",
              "value": "UP209"
            }
          }
        },
        "substitution": {
          "allowedBoolean": false
        }
      }
    },
    {
      "fullUrl": "urn:uuid:64538640-a2b4-4ab2-95e3-847fecb37650",
      "resource": {
        "resourceType": "Patient",
        "identifier": [
          {
            "system": "https://fhir.nhs.uk/Id/nhs-number",
            "value": "9999548792"
          }
        ],
        "name": [
          {
            "use": "usual",
            "family": "BALL",
            "given": [
              "DAWN"
            ],
            "prefix": [
              "Miss"
            ]
          }
        ],
        "gender": "female",
        "birthDate": "1965-03-03",
        "address": [
          {
            "use": "home",
            "line": [
              "STUDIO 9\nHOWARTH LAKE",
              "ROYBOROUGH",
              "WEST DUNBARTONSHIRE"
            ],
            "postalCode": "M7 7NR"
          }
        ],
        "generalPractitioner": [
          {
            "identifier": {
              "system": "https://fhir.nhs.uk/Id/ods-organization-code",
              "value": "O59100"
            }
          }
        ]
      }
    },
    {
      "fullUrl": "urn:uuid:8ec85db5-8649-4505-bb54-3dee62baeac6",
      "resource": {
        "resourceType": "PractitionerRole",
        "identifier": [
          {
            "system": "https://fhir.nhs.uk/Id/sds-role-profile-id",
            "value": "200102238987"
          }
        ],
        "practitioner": {
          "reference": "urn:uuid:1f431ea5-c1b5-4627-830a-f44e22c8e3dd"
        },
        "organization": {
          "reference": "urn:uuid:9cf309a7-57ff-4448-8642-6937aa214b28"
        },
        "code": [
          {
            "coding": [
              {
                "system": "https://fhir.nhs.uk/CodeSystem/NHSDigital-SDS-JobRoleCode",
                "code": "R8000",
                "display": "Clinical Practitioner Access Role"
              },
              {
                "system": "https://fhir.hl7.org.uk/CodeSystem/UKCore-SDSJobRoleName",
                "code": "R8000",
                "display": "Clinical Practitioner Access Role"
              }
            ]
          }
        ],
        "telecom": [
          {
            "system": "phone",
            "use": "work",
            "value": "(0161) 496 0921"
          }
        ]
      }
    },
    {
      "fullUrl": "urn:uuid:1f431ea5-c1b5-4627-830a-f44e22c8e3dd",
      "resource": {
        "resourceType": "Practitioner",
        "identifier": [
          {
            "system": "https://fhir.nhs.uk/Id/sds-user-id",
            "value": "555086689106"
          },
          {
            "system": "https://fhir.hl7.org.uk/Id/gmc-number",
            "value": "6095103"
          },
          {
            "system": "https://fhir.hl7.org.uk/Id/din-number",
            "value": "977677"
          }
        ],
        "name": [
          {
            "family": "QUINN",
            "given": [
              "CHRISTIAN"
            ],
            "prefix": [
              "Dr"
            ]
          }
        ]
      }
    },
    {
      "fullUrl": "urn:uuid:9cf309a7-57ff-4448-8642-6937aa214b28",
      "resource": {
        "resourceType": "Organization",
        "identifier": [
          {
            "system": "https://fhir.nhs.uk/Id/ods-organization-code",
            "value": "O59100"
          }
        ],
        "type": [
          {
            "coding": [
              {
                "system": "https://fhir.nhs.uk/CodeSystem/organisation-role",
                "code": "76",
                "display": "GP PRACTICE"
              }
            ]
          }
        ],
        "name": "HALLGARTH SURGERY",
        "telecom": [
          {
            "system": "phone",
            "use": "work",
            "value": "0115 9737320"
          }
        ],
        "address": [
          {
            "use": "work",
            "type": "both",
            "line": [
              "HALLGARTH SURGERY",
              "CHEAPSIDE"
            ],
            "city": "SHILDON",
            "district": "COUNTY DURHAM",
            "postalCode": "DL4 2HP"
          }
        ],
        "partOf": {
          "identifier": {
            "system": "https://fhir.nhs.uk/Id/ods-organization-code",
            "value": "84H"
          },
          "display": "NHS COUNTY DURHAM CCG"
        }
      }
    }
  ]
}